Folder: Metallisense_AI

File: MetalliSense.metal_grade_specs.csv
_id,metal_grade,grade_type,grade_family,applications[0],applications[1],applications[2],applications[3],composition_range.Fe[0],composition_range.Fe[1],composition_range.C[0],composition_range.C[1],composition_range.Si[0],composition_range.Si[1],composition_range.Mn[0],composition_range.Mn[1],composition_range.P[0],composition_range.P[1],composition_range.S[0],composition_range.S[1],composition_range.Cr[0],composition_range.Cr[1],composition_range.Ni[0],composition_range.Ni[1],composition_range.Mo[0],composition_range.Mo[1],composition_range.Cu[0],composition_range.Cu[1],mechanical_properties.tensile_strength_mpa,mechanical_properties.hardness_hb,mechanical_properties.elongation_percent,created_at,composition_range.Mg[0],composition_range.Mg[1],mechanical_properties.yield_strength_mpa,composition_range.Ti[0],composition_range.Ti[1],heat_treatment.austenitizing_temp_c,heat_treatment.austempering_temp_c,heat_treatment.time_hours,corrosion_resistance,temperature_resistance_c,chemical_resistance,composition_range.V[0],composition_range.V[1],composition_range.Nb[0],composition_range.Nb[1],special_properties
68932b5750952d032e832b87,CI-100-V1,CI,Cast Iron,Automotive,Industrial,Construction,,85,92,2.8,3.6,1.2,1.8,0.3,1,0.02,0.15,0.02,0.12,0,0.3,0,0.2,0,0.1,0,0.4,100,120,0.3,2025-08-06T10:15:45.297Z,,,,,,,,,,,,,,,,
68932b5750952d032e832b88,CI-100-V2,CI,Cast Iron,Automotive,Industrial,Construction,,86,93,3,3.8,1.3,1.9,0.4,1.1,0.02,0.15,0.02,0.12,0,0.4,0,0.25,0,0.1,0,0.5,120,130,0.5,2025-08-06T10:15:45.297Z,,,,,,,,,,,,,,,,
68932b5750952d032e832b89,CI-100-V3,CI,Cast Iron,Automotive,Industrial,Construction,,87,94,3.2,4,1.4,2,0.5,1.2,0.02,0.15,0.02,0.12,0,0.5,0,0.3,0,0.1,0,0.6,140,140,0.7,2025-08-06T10:15:45.297Z,,,,,,,,,,,,,,,,
68932b5750952d032e832b8a,CI-150-V1,CI,Cast Iron,Automotive,Industrial,Construction,,85,92,2.95,3.75,1.3,1.9,0.3,1,0.02,0.15,0.02,0.12,0,0.3,0,0.2,0,0.1,0,0.4,110,125,0.3,2025-08-06T10:15:45.297Z,,,,,,,,,,,,,,,,
68932b5750952d032e832b8b,CI-150-V2,CI,Cast Iron,Automotive,Industrial,Construction,,86,93,3.15,3.95,1.4,2,0.4,1.1,0.02,0.15,0.02,0.12,0,0.4,0,0.25,0,0.1,0,0.5,130,135,0.5,2025-08-06T10:15:45.297Z,,,,,,,,,,,,,,,,
68932b5750952d032e832b8c,CI-150-V3,CI,Cast Iron,Automotive,Industrial,Construction,,87,94,3.35,4.15,1.5,2.1,0.5,1.2,0.02,0.15,0.02,0.12,0,0.5,0,0.3,0,0.1,0,0.6,150,145,0.7,2025-08-06T10:15:45.297Z,,,,,,,,,,,,,,,,
68932b5750952d032e832b8d,CI-200-V1,CI,Cast Iron,Automotive,Industrial,Construction,,85,92,3.1,3.9,1.4,2,0.3,1,0.02,0.15,0.02,0.12,0,0.3,0,0.2,0,0.1,0,0.4,120,130,0.3,2025-08-06T10:15:45.297Z,,,,,,,,,,,,,,,,
68932b5750952d032e832b8e,CI-200-V2,CI,Cast Iron,Automotive,Industrial,Construction,,86,93,3.3,4.1,1.5,2.1,0.4,1.1,0.02,0.15,0.02,0.12,0,0.4,0,0.25,0,0.1,0,0.5,140,140,0.5,2025-08-06T10:15:45.298Z,,,,,,,,,,,,,,,,
68932b5750952d032e832b8f,CI-200-V3,CI,Cast Iron,Automotive,Industrial,Construction,,87,94,3.5,4.3,1.6,2.2,0.5,1.2,0.02,0.15,0.02,0.12,0,0.5,0,0.3,0,0.1,0,0.6,160,150,0.7,2025-08-06T10:15:45.298Z,,,,,,,,,,,,,,,,
68932b5750952d032e832b90,CI-250-V1,CI,Cast Iron,Automotive,Industrial,Construction,,85,92,3.25,4.05,1.5,2.1,0.3,1,0.02,0.15,0.02,0.12,0,0.3,0,0.2,0,0.1,0,0.4,130,135,0.3,2025-08-06T10:15:45.298Z,,,,,,,,,,,,,,,,
68932b5750952d032e832b91,CI-250-V2,CI,Cast Iron,Automotive,Industrial,Construction,,86,93,3.45,4.25,1.6,2.2,0.4,1.1,0.02,0.15,0.02,0.12,0,0.4,0,0.25,0,0.1,0,0.5,150,145,0.5,2025-08-06T10:15:45.298Z,,,,,,,,,,,,,,,,
68932b5750952d032e832b92,CI-250-V3,CI,Cast Iron,Automotive,Industrial,Construction,,87,94,3.65,4.45,1.7,2.3,0.5,1.2,0.02,0.15,0.02,0.12,0,0.5,0,0.3,0,0.1,0,0.6,170,155,0.7,2025-08-06T10:15:45.298Z,,,,,,,,,,,,,,,,
68932b5750952d032e832b93,CI-300-V1,CI,Cast Iron,Automotive,Industrial,Construction,,85,92,3.4,4.2,1.6,2.2,0.3,1,0.02,0.15,0.02,0.12,0,0.3,0,0.2,0,0.1,0,0.4,140,140,0.3,2025-08-06T10:15:45.298Z,,,,,,,,,,,,,,,,
68932b5750952d032e832b94,CI-300-V2,CI,Cast Iron,Automotive,Industrial,Construction,,86,93,3.6,4.4,1.7,2.3,0.4,1.1,0.02,0.15,0.02,0.12,0,0.4,0,0.25,0,0.1,0,0.5,160,150,0.5,2025-08-06T10:15:45.298Z,,,,,,,,,,,,,,,,
68932b5750952d032e832b95,CI-300-V3,CI,Cast Iron,Automotive,Industrial,Construction,,87,94,3.8,4.6,1.8,2.4,0.5,1.2,0.02,0.15,0.02,0.12,0,0.5,0,0.3,0,0.1,0,0.6,180,160,0.7,2025-08-06T10:15:45.298Z,,,,,,,,,,,,,,,,
68932b5750952d032e832b96,CI-350-V1,CI,Cast Iron,Automotive,Industrial,Construction,,85,92,3.55,4.35,1.7,2.3,0.3,1,0.02,0.15,0.02,0.12,0,0.3,0,0.2,0,0.1,0,0.4,150,145,0.3,2025-08-06T10:15:45.298Z,,,,,,,,,,,,,,,,
68932b5750952d032e832b97,CI-350-V2,CI,Cast Iron,Automotive,Industrial,Construction,,86,93,3.75,4.55,1.8,2.4,0.4,1.1,0.02,0.15,0.02,0.12,0,0.4,0,0.25,0,0.1,0,0.5,170,155,0.5,2025-08-06T10:15:45.298Z,,,,,,,,,,,,,,,,
68932b5750952d032e832b98,CI-350-V3,CI,Cast Iron,Automotive,Industrial,Construction,,87,94,3.95,4.75,1.9,2.5,0.5,1.2,0.02,0.15,0.02,0.12,0,0.5,0,0.3,0,0.1,0,0.6,190,165,0.7,2025-08-06T10:15:45.298Z,,,,,,,,,,,,,,,,
68932b5750952d032e832b99,CI-400-V1,CI,Cast Iron,Automotive,Industrial,Construction,,85,92,3.7,4.5,1.8,2.4,0.3,1,0.02,0.15,0.02,0.12,0,0.3,0,0.2,0,0.1,0,0.4,160,150,0.3,2025-08-06T10:15:45.298Z,,,,,,,,,,,,,,,,
68932b5750952d032e832b9a,CI-400-V2,CI,Cast Iron,Automotive,Industrial,Construction,,86,93,3.9,4.7,1.9,2.5,0.4,1.1,0.02,0.15,0.02,0.12,0,0.4,0,0.25,0,0.1,0,0.5,180,160,0.5,2025-08-06T10:15:45.298Z,,,,,,,,,,,,,,,,
68932b5750952d032e832b9b,CI-400-V3,CI,Cast Iron,Automotive,Industrial,Construction,,87,94,4.1,4.9,2,2.6,0.5,1.2,0.02,0.15,0.02,0.12,0,0.5,0,0.3,0,0.1,0,0.6,200,170,0.7,2025-08-06T10:15:45.298Z,,,,,,,,,,,,,,,,
68932b5750952d032e832b9c,HT-150-V1,CI,Cast Iron,Automotive,Industrial,Construction,,85,92,3.85,4.65,1.9,2.5,0.3,1,0.02,0.15,0.02,0.12,0,0.3,0,0.2,0,0.1,0,0.4,170,155,0.3,2025-08-06T10:15:45.298Z,,,,,,,,,,,,,,,,
68932b5750952d032e832b9d,HT-150-V2,CI,Cast Iron,Automotive,Industrial,Construction,,86,93,4.05,4.85,2,2.6,0.4,1.1,0.02,0.15,0.02,0.12,0,0.4,0,0.25,0,0.1,0,0.5,190,165,0.5,2025-08-06T10:15:45.298Z,,,,,,,,,,,,,,,,
68932b5750952d032e832b9e,HT-150-V3,CI,Cast Iron,Automotive,Industrial,Construction,,87,94,4.25,5.05,2.1,2.7,0.5,1.2,0.02,0.15,0.02,0.12,0,0.5,0,0.3,0,0.1,0,0.6,210,175,0.7,2025-08-06T10:15:45.298Z,,,,,,,,,,,,,,,,
68932b5750952d032e832b9f,HT-200-V1,CI,Cast Iron,Automotive,Industrial,Construction,,85,92,4,4.8,2,2.6,0.3,1,0.02,0.15,0.02,0.12,0,0.3,0,0.2,0,0.1,0,0.4,180,160,0.3,2025-08-06T10:15:45.298Z,,,,,,,,,,,,,,,,
68932b5750952d032e832ba0,HT-200-V2,CI,Cast Iron,Automotive,Industrial,Construction,,86,93,4.2,5,2.1,2.7,0.4,1.1,0.02,0.15,0.02,0.12,0,0.4,0,0.25,0,0.1,0,0.5,200,170,0.5,2025-08-06T10:15:45.298Z,,,,,,,,,,,,,,,,
68932b5750952d032e832ba1,HT-200-V3,CI,Cast Iron,Automotive,Industrial,Construction,,87,94,4.4,5.2,2.2,2.8,0.5,1.2,0.02,0.15,0.02,0.12,0,0.5,0,0.3,0,0.1,0,0.6,220,180,0.7,2025-08-06T10:15:45.298Z,,,,,,,,,,,,,,,,
68932b5750952d032e832ba2,HT-250-V1,CI,Cast Iron,Automotive,Industrial,Construction,,85,92,4.15,4.95,2.1,2.7,0.3,1,0.02,0.15,0.02,0.12,0,0.3,0,0.2,0,0.1,0,0.4,190,165,0.3,2025-08-06T10:15:45.298Z,,,,,,,,,,,,,,,,
68932b5750952d032e832ba3,HT-250-V2,CI,Cast Iron,Automotive,Industrial,Construction,,86,93,4.35,5.15,2.2,2.8,0.4,1.1,0.02,0.15,0.02,0.12,0,0.4,0,0.25,0,0.1,0,0.5,210,175,0.5,2025-08-06T10:15:45.298Z,,,,,,,,,,,,,,,,
68932b5750952d032e832ba4,HT-250-V3,CI,Cast Iron,Automotive,Industrial,Construction,,87,94,4.55,5.35,2.3,2.9,0.5,1.2,0.02,0.15,0.02,0.12,0,0.5,0,0.3,0,0.1,0,0.6,230,185,0.7,2025-08-06T10:15:45.298Z,,,,,,,,,,,,,,,,
68932b5750952d032e832ba5,HT-300-V1,CI,Cast Iron,Automotive,Industrial,Construction,,85,92,2.8,3.6,2.2,2.8,0.3,1,0.02,0.15,0.02,0.12,0,0.3,0,0.2,0,0.1,0,0.4,200,170,0.3,2025-08-06T10:15:45.298Z,,,,,,,,,,,,,,,,
68932b5750952d032e832ba6,HT-300-V2,CI,Cast Iron,Automotive,Industrial,Construction,,86,93,3,3.8,2.3,2.9,0.4,1.1,0.02,0.15,0.02,0.12,0,0.4,0,0.25,0,0.1,0,0.5,220,180,0.5,2025-08-06T10:15:45.298Z,,,,,,,,,,,,,,,,
68932b5750952d032e832ba7,HT-300-V3,CI,Cast Iron,Automotive,Industrial,Construction,,87,94,3.2,4,2.4,3,0.5,1.2,0.02,0.15,0.02,0.12,0,0.5,0,0.3,0,0.1,0,0.6,240,190,0.7,2025-08-06T10:15:45.298Z,,,,,,,,,,,,,,,,
68932b5750952d032e832ba8,HT-350-V1,CI,Cast Iron,Automotive,Industrial,Construction,,85,92,2.95,3.75,2.3,2.9,0.3,1,0.02,0.15,0.02,0.12,0,0.3,0,0.2,0,0.1,0,0.4,210,175,0.3,2025-08-06T10:15:45.298Z,,,,,,,,,,,,,,,,
68932b5750952d032e832ba9,HT-350-V2,CI,Cast Iron,Automotive,Industrial,Construction,,86,93,3.15,3.95,2.4,3,0.4,1.1,0.02,0.15,0.02,0.12,0,0.4,0,0.25,0,0.1,0,0.5,230,185,0.5,2025-08-06T10:15:45.298Z,,,,,,,,,,,,,,,,
68932b5750952d032e832baa,HT-350-V3,CI,Cast Iron,Automotive,Industrial,Construction,,87,94,3.35,4.15,2.5,3.1,0.5,1.2,0.02,0.15,0.02,0.12,0,0.5,0,0.3,0,0.1,0,0.6,250,195,0.7,2025-08-06T10:15:45.298Z,,,,,,,,,,,,,,,,
68932b5750952d032e832bab,FC-100-V1,CI,Cast Iron,Automotive,Industrial,Construction,,85,92,3.1,3.9,2.4,3,0.3,1,0.02,0.15,0.02,0.12,0,0.3,0,0.2,0,0.1,0,0.4,220,180,0.3,2025-08-06T10:15:45.298Z,,,,,,,,,,,,,,,,
68932b5750952d032e832bac,FC-100-V2,CI,Cast Iron,Automotive,Industrial,Construction,,86,93,3.3,4.1,2.5,3.1,0.4,1.1,0.02,0.15,0.02,0.12,0,0.4,0,0.25,0,0.1,0,0.5,240,190,0.5,2025-08-06T10:15:45.298Z,,,,,,,,,,,,,,,,
68932b5750952d032e832bad,FC-100-V3,CI,Cast Iron,Automotive,Industrial,Construction,,87,94,3.5,4.3,2.6,3.2,0.5,1.2,0.02,0.15,0.02,0.12,0,0.5,0,0.3,0,0.1,0,0.6,260,200,0.7,2025-08-06T10:15:45.298Z,,,,,,,,,,,,,,,,
68932b5750952d032e832bae,FC-150-V1,CI,Cast Iron,Automotive,Industrial,Construction,,85,92,3.25,4.05,2.5,3.1,0.3,1,0.02,0.15,0.02,0.12,0,0.3,0,0.2,0,0.1,0,0.4,230,185,0.3,2025-08-06T10:15:45.298Z,,,,,,,,,,,,,,,,
68932b5750952d032e832baf,FC-150-V2,CI,Cast Iron,Automotive,Industrial,Construction,,86,93,3.45,4.25,2.6,3.2,0.4,1.1,0.02,0.15,0.02,0.12,0,0.4,0,0.25,0,0.1,0,0.5,250,195,0.5,2025-08-06T10:15:45.298Z,,,,,,,,,,,,,,,,
68932b5750952d032e832bb0,FC-150-V3,CI,Cast Iron,Automotive,Industrial,Construction,,87,94,3.65,4.45,2.7,3.3,0.5,1.2,0.02,0.15,0.02,0.12,0,0.5,0,0.3,0,0.1,0,0.6,270,205,0.7,2025-08-06T10:15:45.298Z,,,,,,,,,,,,,,,,
68932b5750952d032e832bb1,FC-200-V1,CI,Cast Iron,Automotive,Industrial,Construction,,85,92,3.4,4.2,2.6,3.2,0.3,1,0.02,0.15,0.02,0.12,0,0.3,0,0.2,0,0.1,0,0.4,240,190,0.3,2025-08-06T10:15:45.298Z,,,,,,,,,,,,,,,,
68932b5750952d032e832bb2,FC-200-V2,CI,Cast Iron,Automotive,Industrial,Construction,,86,93,3.6,4.4,2.7,3.3,0.4,1.1,0.02,0.15,0.02,0.12,0,0.4,0,0.25,0,0.1,0,0.5,260,200,0.5,2025-08-06T10:15:45.298Z,,,,,,,,,,,,,,,,
68932b5750952d032e832bb3,FC-200-V3,CI,Cast Iron,Automotive,Industrial,Construction,,87,94,3.8,4.6,2.8,3.4,0.5,1.2,0.02,0.15,0.02,0.12,0,0.5,0,0.3,0,0.1,0,0.6,280,210,0.7,2025-08-06T10:15:45.298Z,,,,,,,,,,,,,,,,
68932b5750952d032e832bb4,FC-250-V1,CI,Cast Iron,Automotive,Industrial,Construction,,85,92,3.55,4.35,2.7,3.3,0.3,1,0.02,0.15,0.02,0.12,0,0.3,0,0.2,0,0.1,0,0.4,250,195,0.3,2025-08-06T10:15:45.298Z,,,,,,,,,,,,,,,,
68932b5750952d032e832bb5,FC-250-V2,CI,Cast Iron,Automotive,Industrial,Construction,,86,93,3.75,4.55,2.8,3.4,0.4,1.1,0.02,0.15,0.02,0.12,0,0.4,0,0.25,0,0.1,0,0.5,270,205,0.5,2025-08-06T10:15:45.298Z,,,,,,,,,,,,,,,,
68932b5750952d032e832bb6,FC-250-V3,CI,Cast Iron,Automotive,Industrial,Construction,,87,94,3.95,4.75,2.9,3.5,0.5,1.2,0.02,0.15,0.02,0.12,0,0.5,0,0.3,0,0.1,0,0.6,290,215,0.7,2025-08-06T10:15:45.298Z,,,,,,,,,,,,,,,,
68932b5750952d032e832bb7,FC-300-V1,CI,Cast Iron,Automotive,Industrial,Construction,,85,92,3.7,4.5,2.8,3.4,0.3,1,0.02,0.15,0.02,0.12,0,0.3,0,0.2,0,0.1,0,0.4,260,200,0.3,2025-08-06T10:15:45.298Z,,,,,,,,,,,,,,,,
68932b5750952d032e832bb8,FC-300-V2,CI,Cast Iron,Automotive,Industrial,Construction,,86,93,3.9,4.7,2.9,3.5,0.4,1.1,0.02,0.15,0.02,0.12,0,0.4,0,0.25,0,0.1,0,0.5,280,210,0.5,2025-08-06T10:15:45.298Z,,,,,,,,,,,,,,,,
68932b5750952d032e832bb9,FC-300-V3,CI,Cast Iron,Automotive,Industrial,Construction,,87,94,4.1,4.9,3,3.6,0.5,1.2,0.02,0.15,0.02,0.12,0,0.5,0,0.3,0,0.1,0,0.6,300,220,0.7,2025-08-06T10:15:45.298Z,,,,,,,,,,,,,,,,
68932b5750952d032e832bba,CI-A-V1,CI,Cast Iron,Automotive,Industrial,Construction,,85,92,3.85,4.65,2.9,3.5,0.3,1,0.02,0.15,0.02,0.12,0,0.3,0,0.2,0,0.1,0,0.4,270,205,0.3,2025-08-06T10:15:45.298Z,,,,,,,,,,,,,,,,
68932b5750952d032e832bbb,CI-A-V2,CI,Cast Iron,Automotive,Industrial,Construction,,86,93,4.05,4.85,3,3.6,0.4,1.1,0.02,0.15,0.02,0.12,0,0.4,0,0.25,0,0.1,0,0.5,290,215,0.5,2025-08-06T10:15:45.298Z,,,,,,,,,,,,,,,,
68932b5750952d032e832bbc,CI-A-V3,CI,Cast Iron,Automotive,Industrial,Construction,,87,94,4.25,5.05,3.1,3.7,0.5,1.2,0.02,0.15,0.02,0.12,0,0.5,0,0.3,0,0.1,0,0.6,310,225,0.7,2025-08-06T10:15:45.298Z,,,,,,,,,,,,,,,,
68932b5750952d032e832bbd,CI-B-V1,CI,Cast Iron,Automotive,Industrial,Construction,,85,92,4,4.8,1.2,1.8,0.3,1,0.02,0.15,0.02,0.12,0,0.3,0,0.2,0,0.1,0,0.4,280,210,0.3,2025-08-06T10:15:45.298Z,,,,,,,,,,,,,,,,
68932b5750952d032e832bbe,CI-B-V2,CI,Cast Iron,Automotive,Industrial,Construction,,86,93,4.2,5,1.3,1.9,0.4,1.1,0.02,0.15,0.02,0.12,0,0.4,0,0.25,0,0.1,0,0.5,300,220,0.5,2025-08-06T10:15:45.298Z,,,,,,,,,,,,,,,,
68932b5750952d032e832bbf,CI-B-V3,CI,Cast Iron,Automotive,Industrial,Construction,,87,94,4.4,5.2,1.4,2,0.5,1.2,0.02,0.15,0.02,0.12,0,0.5,0,0.3,0,0.1,0,0.6,320,230,0.7,2025-08-06T10:15:45.298Z,,,,,,,,,,,,,,,,
68932b5750952d032e832bc0,CI-C-V1,CI,Cast Iron,Automotive,Industrial,Construction,,85,92,4.15,4.95,1.3,1.9,0.3,1,0.02,0.15,0.02,0.12,0,0.3,0,0.2,0,0.1,0,0.4,290,215,0.3,2025-08-06T10:15:45.298Z,,,,,,,,,,,,,,,,
68932b5750952d032e832bc1,CI-C-V2,CI,Cast Iron,Automotive,Industrial,Construction,,86,93,4.35,5.15,1.4,2,0.4,1.1,0.02,0.15,0.02,0.12,0,0.4,0,0.25,0,0.1,0,0.5,310,225,0.5,2025-08-06T10:15:45.298Z,,,,,,,,,,,,,,,,
68932b5750952d032e832bc2,CI-C-V3,CI,Cast Iron,Automotive,Industrial,Construction,,87,94,4.55,5.35,1.5,2.1,0.5,1.2,0.02,0.15,0.02,0.12,0,0.5,0,0.3,0,0.1,0,0.6,330,235,0.7,2025-08-06T10:15:45.298Z,,,,,,,,,,,,,,,,
68932b5750952d032e832bc3,CI-D-V1,CI,Cast Iron,Automotive,Industrial,Construction,,85,92,2.8,3.6,1.4,2,0.3,1,0.02,0.15,0.02,0.12,0,0.3,0,0.2,0,0.1,0,0.4,300,220,0.3,2025-08-06T10:15:45.298Z,,,,,,,,,,,,,,,,
68932b5750952d032e832bc4,CI-D-V2,CI,Cast Iron,Automotive,Industrial,Construction,,86,93,3,3.8,1.5,2.1,0.4,1.1,0.02,0.15,0.02,0.12,0,0.4,0,0.25,0,0.1,0,0.5,320,230,0.5,2025-08-06T10:15:45.298Z,,,,,,,,,,,,,,,,
68932b5750952d032e832bc5,CI-D-V3,CI,Cast Iron,Automotive,Industrial,Construction,,87,94,3.2,4,1.6,2.2,0.5,1.2,0.02,0.15,0.02,0.12,0,0.5,0,0.3,0,0.1,0,0.6,340,240,0.7,2025-08-06T10:15:45.298Z,,,,,,,,,,,,,,,,
68932b5750952d032e832bc6,DI-400-18-V1,DI,Ductile Iron,Automotive,Agricultural,Mining,Marine,88,95,3.2,3.8,2,2.8,0.15,0.8,0.01,0.08,0.008,0.025,0,0.15,0,0.5,0,0.25,0,0.8,400,140,10.5,2025-08-06T10:15:45.298Z,0.035,0.065,250,,,,,,,,,,,,,
68932b5750952d032e832bc7,DI-400-18-V2,DI,Ductile Iron,Automotive,Agricultural,Mining,Marine,88.5,95.3,3.3,3.9,2.2,3,0.2,0.9,0.01,0.08,0.008,0.025,0,0.2,0,0.6,0,0.3,0,0.9,415,145,11.5,2025-08-06T10:15:45.298Z,0.04,0.07,260,,,,,,,,,,,,,
68932b5750952d032e832bc8,DI-400-18-V3,DI,Ductile Iron,Automotive,Agricultural,Mining,Marine,89,95.6,3.4,4,2.4,3.2,0.25,1,0.01,0.08,0.008,0.025,0,0.25,0,0.7,0,0.35,0,1,430,150,12.5,2025-08-06T10:15:45.298Z,0.045,0.075,270,,,,,,,,,,,,,
68932b5750952d032e832bc9,DI-450-10-V1,DI,Ductile Iron,Automotive,Agricultural,Mining,Marine,88,95,3.2,3.8,2,2.8,0.15,0.8,0.01,0.08,0.008,0.025,0,0.15,0,0.5,0,0.25,0,0.8,425,148,10,2025-08-06T10:15:45.298Z,0.035,0.065,270,,,,,,,,,,,,,
68932b5750952d032e832bca,DI-450-10-V2,DI,Ductile Iron,Automotive,Agricultural,Mining,Marine,88.5,95.3,3.3,3.9,2.2,3,0.2,0.9,0.01,0.08,0.008,0.025,0,0.2,0,0.6,0,0.3,0,0.9,440,153,11,2025-08-06T10:15:45.298Z,0.04,0.07,280,,,,,,,,,,,,,
68932b5750952d032e832bcb,DI-450-10-V3,DI,Ductile Iron,Automotive,Agricultural,Mining,Marine,89,95.6,3.4,4,2.4,3.2,0.25,1,0.01,0.08,0.008,0.025,0,0.25,0,0.7,0,0.35,0,1,455,158,12,2025-08-06T10:15:45.298Z,0.045,0.075,290,,,,,,,,,,,,,
68932b5750952d032e832bcc,DI-500-7-V1,DI,Ductile Iron,Automotive,Agricultural,Mining,Marine,88,95,3.2,3.8,2,2.8,0.15,0.8,0.01,0.08,0.008,0.025,0,0.15,0,0.5,0,0.25,0,0.8,450,156,9.5,2025-08-06T10:15:45.298Z,0.035,0.065,290,,,,,,,,,,,,,
68932b5750952d032e832bcd,DI-500-7-V2,DI,Ductile Iron,Automotive,Agricultural,Mining,Marine,88.5,95.3,3.3,3.9,2.2,3,0.2,0.9,0.01,0.08,0.008,0.025,0,0.2,0,0.6,0,0.3,0,0.9,465,161,10.5,2025-08-06T10:15:45.298Z,0.04,0.07,300,,,,,,,,,,,,,
68932b5750952d032e832bce,DI-500-7-V3,DI,Ductile Iron,Automotive,Agricultural,Mining,Marine,89,95.6,3.4,4,2.4,3.2,0.25,1,0.01,0.08,0.008,0.025,0,0.25,0,0.7,0,0.35,0,1,480,166,11.5,2025-08-06T10:15:45.298Z,0.045,0.075,310,,,,,,,,,,,,,
68932b5750952d032e832bcf,DI-600-3-V1,DI,Ductile Iron,Automotive,Agricultural,Mining,Marine,88,95,3.2,3.8,2,2.8,0.15,0.8,0.01,0.08,0.008,0.025,0,0.15,0,0.5,0,0.25,0,0.8,475,164,9,2025-08-06T10:15:45.298Z,0.035,0.065,310,,,,,,,,,,,,,
68932b5750952d032e832bd0,DI-600-3-V2,DI,Ductile Iron,Automotive,Agricultural,Mining,Marine,88.5,95.3,3.3,3.9,2.2,3,0.2,0.9,0.01,0.08,0.008,0.025,0,0.2,0,0.6,0,0.3,0,0.9,490,169,10,2025-08-06T10:15:45.298Z,0.04,0.07,320,,,,,,,,,,,,,
68932b5750952d032e832bd1,DI-600-3-V3,DI,Ductile Iron,Automotive,Agricultural,Mining,Marine,89,95.6,3.4,4,2.4,3.2,0.25,1,0.01,0.08,0.008,0.025,0,0.25,0,0.7,0,0.35,0,1,505,174,11,2025-08-06T10:15:45.298Z,0.045,0.075,330,,,,,,,,,,,,,
[...]
68932b5850952d032e832c37,NI-RESIST-Type3-V2,Ni-Resist,Corrosion Resistant Cast Iron,Chemical Processing,Marine,High Temperature,,66,76,2.5,3.3,1.1,3.2,0.6,1.6,0.01,0.08,0.008,0.02,2.95,4.45,18,21,0,1.2,6,8,190,158,9,2025-08-06T10:15:45.298Z,,,,,,,,,Excellent,600,,,,,,
68932b5850952d032e832c38,NI-RESIST-Type3-V3,Ni-Resist,Corrosion Resistant Cast Iron,Chemical Processing,Marine,High Temperature,,67,77,2.6,3.4,1.2,3.4,0.7,1.7,0.01,0.08,0.008,0.02,3.15,4.65,18.5,21.5,0,1.4,6.5,8.5,200,166,10,2025-08-06T10:15:45.298Z,,,,,,,,,Excellent,600,,,,,,
68932b5850952d032e832c39,NI-RESIST-Type4-V1,Ni-Resist,Corrosion Resistant Cast Iron,Chemical Processing,Marine,High Temperature,,65,75,2.4,3.2,1,3,0.5,1.5,0.01,0.08,0.008,0.02,3.25,4.75,19.5,22.5,0,1,5.5,7.5,200,165,8,2025-08-06T10:15:45.298Z,,,,,,,,,Excellent,650,,,,,,
68932b5850952d032e832c3a,NI-RESIST-Type4-V2,Ni-Resist,Corrosion Resistant Cast Iron,Chemical Processing,Marine,High Temperature,,66,76,2.5,3.3,1.1,3.2,0.6,1.6,0.01,0.08,0.008,0.02,3.45,4.95,20,23,0,1.2,6,8,210,173,9,2025-08-06T10:15:45.298Z,,,,,,,,,Excellent,650,,,,,,
68932b5850952d032e832c3b,NI-RESIST-Type4-V3,Ni-Resist,Corrosion Resistant Cast Iron,Chemical Processing,Marine,High Temperature,,67,77,2.6,3.4,1.2,3.4,0.7,1.7,0.01,0.08,0.008,0.02,3.65,5.15,20.5,23.5,0,1.4,6.5,8.5,220,181,10,2025-08-06T10:15:45.298Z,,,,,,,,,Excellent,650,,,,,,
68932b5850952d032e832c3c,NI-RESIST-Type5-V1,Ni-Resist,Corrosion Resistant Cast Iron,Chemical Processing,Marine,High Temperature,,65,75,2.4,3.2,1,3,0.5,1.5,0.01,0.08,0.008,0.02,3.75,5.25,21.5,24.5,0,1,5.5,7.5,220,180,8,2025-08-06T10:15:45.298Z,,,,,,,,,Excellent,700,,,,,,
68932b5850952d032e832c3d,NI-RESIST-Type5-V2,Ni-Resist,Corrosion Resistant Cast Iron,Chemical Processing,Marine,High Temperature,,66,76,2.5,3.3,1.1,3.2,0.6,1.6,0.01,0.08,0.008,0.02,3.95,5.45,22,25,0,1.2,6,8,230,188,9,2025-08-06T10:15:45.298Z,,,,,,,,,Excellent,700,,,,,,
68932b5850952d032e832c3e,NI-RESIST-Type5-V3,Ni-Resist,Corrosion Resistant Cast Iron,Chemical Processing,Marine,High Temperature,,67,77,2.6,3.4,1.2,3.4,0.7,1.7,0.01,0.08,0.008,0.02,4.15,5.65,22.5,25.5,0,1.4,6.5,8.5,240,196,10,2025-08-06T10:15:45.298Z,,,,,,,,,Excellent,700,,,,,,
68932b5850952d032e832c3f,HIGH-SI-14-2,High-Si,High Silicon Cast Iron,Chemical Equipment,Acid Resistant,Pumps,,78,85,0.8,1.2,14,17,0.4,0.8,0.01,0.05,0.005,0.02,0,0.5,,,0,0.5,0,0.5,160,170,0.5,2025-08-06T10:15:45.298Z,,,,,,,,,,,Excellent,,,,,
68932b5850952d032e832c40,HIGH-SI-15-2,High-Si,High Silicon Cast Iron,Chemical Equipment,Acid Resistant,Pumps,,78.5,85.3,0.85,1.23,14.3,17.2,0.42,0.83,0.01,0.05,0.005,0.02,0,0.55,,,0,0.53,0,0.5,168,180,0.6,2025-08-06T10:15:45.298Z,,,,,,,,,,,Excellent,,,,,
68932b5850952d032e832c41,HIGH-SI-16-3,High-Si,High Silicon Cast Iron,Chemical Equipment,Acid Resistant,Pumps,,79,85.6,0.9,1.26,14.6,17.4,0.44,0.86,0.01,0.05,0.005,0.02,0,0.6,,,0,0.56,0,0.5,176,190,0.7,2025-08-06T10:15:45.298Z,,,,,,,,,,,Excellent,,,,,
68932b5850952d032e832c42,HIGH-SI-17-3,High-Si,High Silicon Cast Iron,Chemical Equipment,Acid Resistant,Pumps,,79.5,85.9,0.95,1.29,14.9,17.6,0.46,0.89,0.01,0.05,0.005,0.02,0,0.65,,,0,0.59,0,0.5,184,200,0.8,2025-08-06T10:15:45.298Z,,,,,,,,,,,Excellent,,,,,
68932b5850952d032e832c43,HIGH-SI-18-4,High-Si,High Silicon Cast Iron,Chemical Equipment,Acid Resistant,Pumps,,80,86.2,1,1.32,15.2,17.8,0.48,0.92,0.01,0.05,0.005,0.02,0,0.7,,,0,0.62,0,0.5,192,210,0.9,2025-08-06T10:15:45.298Z,,,,,,,,,,,Excellent,,,,,
68932b5850952d032e832c44,HIGH-SI-19-4,High-Si,High Silicon Cast Iron,Chemical Equipment,Acid Resistant,Pumps,,80.5,86.5,1.05,1.35,15.5,18,0.5,0.95,0.01,0.05,0.005,0.02,0,0.75,,,0,0.65,0,0.5,200,220,1,2025-08-06T10:15:45.298Z,,,,,,,,,,,Excellent,,,,,
68932b5850952d032e832c45,HIGH-SI-20-5,High-Si,High Silicon Cast Iron,Chemical Equipment,Acid Resistant,Pumps,,81,86.8,1.1,1.38,15.8,18.2,0.52,0.98,0.01,0.05,0.005,0.02,0,0.8,,,0,0.68,0,0.5,208,230,1.1,2025-08-06T10:15:45.298Z,,,,,,,,,,,Excellent,,,,,
68932b5850952d032e832c46,HIGH-SI-21-5,High-Si,High Silicon Cast Iron,Chemical Equipment,Acid Resistant,Pumps,,81.5,87.1,1.15,1.41,16.1,18.4,0.54,1.01,0.01,0.05,0.005,0.02,0,0.85,,,0,0.71,0,0.5,216,240,1.2,2025-08-06T10:15:45.298Z,,,,,,,,,,,Excellent,,,,,
68932b5850952d032e832c47,HIGH-SI-22-6,High-Si,High Silicon Cast Iron,Chemical Equipment,Acid Resistant,Pumps,,82,87.4,1.2,1.44,16.4,18.6,0.56,1.04,0.01,0.05,0.005,0.02,0,0.9,,,0,0.74,0,0.5,224,250,1.3,2025-08-06T10:15:45.298Z,,,,,,,,,,,Excellent,,,,,
68932b5850952d032e832c48,HIGH-SI-23-6,High-Si,High Silicon Cast Iron,Chemical Equipment,Acid Resistant,Pumps,,82.5,87.7,1.25,1.47,16.7,18.8,0.58,1.07,0.01,0.05,0.005,0.02,0,0.95,,,0,0.77,0,0.5,232,260,1.4,2025-08-06T10:15:45.298Z,,,,,,,,,,,Excellent,,,,,
68932b5850952d032e832c49,WEAR-RESISTANT-CI-1,Special,Special Purpose Cast Iron,Wear Resistant,Industrial,Specialized,,82,90,2.8,3.6,1.5,2.5,0.3,1.2,0.01,0.08,0.005,0.03,2,5,0,1,0,0.8,0,1,200,300,1,2025-08-06T10:15:45.298Z,,,,,,,,,,,,0,0.5,0,0.05,Wear Resistant
68932b5850952d032e832c4a,HIGH-TEMP-CI-2,Special,Special Purpose Cast Iron,High Temp,Industrial,Specialized,,82.2,90.1,2.83,3.62,1.55,2.53,0.32,1.24,0.01,0.08,0.005,0.03,1,3,1,3,0,0.85,0,1.1,225,208,1.1,2025-08-06T10:15:45.298Z,,,,,,,,,,,,0,0.1,0,0.2,High Temp
68932b5850952d032e832c4b,MAGNETIC-CI-3,Special,Special Purpose Cast Iron,Magnetic,Industrial,Specialized,,82.4,90.2,2.86,3.64,1.6,2.56,0.34,1.28,0.01,0.08,0.005,0.03,1,3,0,0.5,0,0.9,0,1.2,250,190,1.2,2025-08-06T10:15:45.298Z,,,,,,,,,,,,0,0.1,0,0.05,Magnetic
68932b5850952d032e832c4c,NON-MAGNETIC-CI-4,Special,Special Purpose Cast Iron,Non Magnetic,Industrial,Specialized,,82.6,90.3,2.89,3.66,1.65,2.59,0.36,1.32,0.01,0.08,0.005,0.03,1,3,0,0.5,0,0.95,0,1.3,275,195,1.3,2025-08-06T10:15:45.298Z,,,,,,,,,,,,0,0.1,0,0.05,Non Magnetic
68932b5850952d032e832c4d,ABRASION-CI-5,Special,Special Purpose Cast Iron,Abrasion,Industrial,Specialized,,82.8,90.4,2.92,3.68,1.7,2.62,0.38,1.36,0.01,0.08,0.005,0.03,2,5,0,0.5,0,1,0,1.4,300,340,1.4,2025-08-06T10:15:45.298Z,,,,,,,,,,,,0,0.1,0,0.05,Abrasion
68932b5850952d032e832c4e,IMPACT-CI-6,Special,Special Purpose Cast Iron,Impact,Industrial,Specialized,,83,90.5,2.95,3.7,1.75,2.65,0.4,1.4,0.01,0.08,0.005,0.03,0.2,1.5,0,2,0,1.05,0,1.5,325,210,1.5,2025-08-06T10:15:45.298Z,,,,,,,,,,,,0,0.1,0,0.05,Impact
68932b5950952d032e832c4f,FATIGUE-CI-7,Special,Special Purpose Cast Iron,Fatigue,Industrial,Specialized,,83.2,90.6,2.98,3.72,1.8,2.68,0.42,1.44,0.01,0.08,0.005,0.03,0.2,1.5,0,2,0,1.1,0,1.6,350,220,1.6,2025-08-06T10:15:45.298Z,,,,,,,,,,,,0,0.1,0,0.05,Fatigue
68932b5950952d032e832c50,CRYOGENIC-CI-8,Special,Special Purpose Cast Iron,Cryogenic,Industrial,Specialized,,83.4,90.7,3.01,3.74,1.85,2.71,0.44,1.48,0.01,0.08,0.005,0.03,0.2,1.5,0,2,0,1.15,0,1.7,375,230,1.7,2025-08-06T10:15:45.298Z,,,,,,,,,,,,0,0.1,0,0.05,Cryogenic
68932b5950952d032e832c51,HEAT-SHOCK-CI-9,Special,Special Purpose Cast Iron,Heat Shock,Industrial,Specialized,,83.6,90.8,3.04,3.76,1.9,2.74,0.46,1.52,0.01,0.08,0.005,0.03,1,3,1,3,0,1.2,0,1.8,400,264,1.8,2025-08-06T10:15:45.298Z,,,,,,,,,,,,0,0.1,0,0.05,Heat Shock
68932b5950952d032e832c52,EROSION-CI-10,Special,Special Purpose Cast Iron,Erosion,Industrial,Specialized,,83.8,90.9,3.07,3.78,1.95,2.77,0.48,1.56,0.01,0.08,0.005,0.03,0.2,1.5,0,2,0,1.25,0,1.9,425,250,1.9,2025-08-06T10:15:45.298Z,,,,,,,,,,,,0,0.1,0,0.05,Erosion
68932b5950952d032e832c53,CAVITATION-CI-11,Special,Special Purpose Cast Iron,Cavitation,Industrial,Specialized,,84,91,3.1,3.8,2,2.8,0.5,1.6,0.01,0.08,0.005,0.03,0.2,1.5,0,2,0,1.3,0,2,450,260,2,2025-08-06T10:15:45.298Z,,,,,,,,,,,,0,0.1,0,0.05,Cavitation
68932b5950952d032e832c54,THERMAL-CYCLE-CI-12,Special,Special Purpose Cast Iron,Thermal Cycle,Industrial,Specialized,,84.2,91.1,3.13,3.82,2.05,2.83,0.52,1.64,0.01,0.08,0.005,0.03,0.2,1.5,0,2,0,1.35,0,2.1,475,270,2.1,2025-08-06T10:15:45.298Z,,,,,,,,,,,,0,0.1,0,0.05,Thermal Cycle
68932b5950952d032e832c55,STRESS-RELIEF-CI-13,Special,Special Purpose Cast Iron,Stress Relief,Industrial,Specialized,,84.4,91.2,3.16,3.84,2.1,2.86,0.54,1.68,0.01,0.08,0.005,0.03,0.2,1.5,0,2,0,1.4,0,2.2,500,280,2.2,2025-08-06T10:15:45.298Z,,,,,,,,,,,,0,0.1,0,0.05,Stress Relief
68932b5950952d032e832c56,DAMPING-CI-14,Special,Special Purpose Cast Iron,Damping,Industrial,Specialized,,84.6,91.3,3.19,3.86,2.15,2.89,0.56,1.72,0.01,0.08,0.005,0.03,0.2,1.5,0,2,0,1.45,0,2.3,525,290,2.3,2025-08-06T10:15:45.298Z,,,,,,,,,,,,0,0.1,0,0.05,Damping
68932b5950952d032e832c57,HARDENING-CI-15,Special,Special Purpose Cast Iron,Hardening,Industrial,Specialized,,84.8,91.4,3.22,3.88,2.2,2.92,0.58,1.76,0.01,0.08,0.005,0.03,0.2,1.5,0,2,0,1.5,0,2.4,550,300,2.4,2025-08-06T10:15:45.298Z,,,,,,,,,,,,0,0.1,0,0.05,Hardening